onset	duration	trial_type	response_accuracy	response_time	response_hand
12.0384	6	active_change	correct	0.8812000000000015	right
24.0548	6	active_change	correct	0.8584999999999994	right
30.063	6	active_nochange	incorrect	1.5021000000000022	right
40.0794	6	passive	miss	n/a	right
46.0877	6	active_change	correct	0.8389999999999986	right
56.1041	6	active_nochange	incorrect	1.8853000000000009	right
64.1206	6	active_change	incorrect	0.9035999999999973	left
70.1288	6	active_nochange	correct	1.3042999999999978	left
76.137	6	active_change	correct	1.3268999999999949	right
82.1452	6	active_change	correct	0.8045999999999935	right
90.1617	6	active_nochange	correct	0.8409000000000049	left
96.17	6	active_nochange	correct	0.8833999999999946	left
104.1865	6	active_nochange	incorrect	0.9117000000000104	right
110.1947	6	passive	miss	n/a	right
116.2029	6	active_change	correct	0.8719999999999999	right
122.2111	6	active_nochange	correct	1.455600000000004	left
130.2276	6	passive	miss	n/a	left
138.2441	6	active_nochange	correct	1.1531999999999982	left
144.2523	6	active_nochange	correct	0.9057999999999993	left
154.2688	6	active_nochange	miss	n/a	right
160.277	6	passive	miss	n/a	right
166.2852	6	passive	miss	n/a	right
176.3016	6	active_change	incorrect	1.483699999999999	left
184.3181	6	active_change	correct	1.0860000000000127	right
192.3346	6	active_nochange	correct	1.4432000000000187	left
198.3428	6	active_change	correct	1.4798999999999864	right
208.3593	6	passive	miss	n/a	left
214.3675	6	active_nochange	miss	n/a	right
220.3757	6	active_change	correct	0.933400000000006	right
226.3839	6	active_change	correct	1.0800999999999874	right
232.3921	6	active_nochange	correct	1.1587000000000103	left
242.4086	6	active_change	correct	0.9119000000000028	right
248.4168	6	active_change	correct	0.8536000000000001	right
256.4333	6	active_change	correct	1.4639000000000237	right
262.4415	6	active_change	correct	0.9704999999999586	right
268.4497	6	active_nochange	correct	0.9601000000000113	left
276.4662	6	passive	miss	n/a	right
284.4827	6	passive	miss	n/a	left
300.4991	6	active_nochange	correct	0.9309000000000083	left
306.5073	6	active_nochange	miss	n/a	n/a
